File: hw1/usgs_splib07/ASCIIdata_splib07b_cvASD/all_material/s07_ASD_Chalcedony_CU91-6A_XRD_NIC4aa_RREF.txt
s07_ASD Record=2526: Chalcedony CU91-6A XRD       NIC4aa RREF
-1.23e+34
-1.23e+34
-1.23e+34
-1.23e+34
-1.23e+34
-1.23e+34
-1.23e+34
-1.23e+34
-1.23e+34
-1.23e+34
-1.23e+34
-1.23e+34
-1.23e+34
-1.23e+34
-1.23e+34
-1.23e+34
-1.23e+34
-1.23e+34
-1.23e+34
-1.23e+34
-1.23e+34
-1.23e+34
-1.23e+34
-1.23e+34
-1.23e+34
-1.23e+34
-1.23e+34
-1.23e+34
-1.23e+34
-1.23e+34
-1.23e+34
-1.23e+34
-1.23e+34
-1.23e+34
-1.23e+34
-1.23e+34
-1.23e+34
-1.23e+34
-1.23e+34
-1.23e+34
-1.23e+34
-1.23e+34
-1.23e+34
-1.23e+34
-1.23e+34
-1.23e+34
-1.23e+34
-1.23e+34
-1.23e+34
-1.23e+34
-1.23e+34
-1.23e+34
-1.23e+34
-1.23e+34
-1.23e+34
-1.23e+34
-1.23e+34
-1.23e+34
-1.23e+34
-1.23e+34
-1.23e+34
-1.23e+34
-1.23e+34
-1.23e+34
-1.23e+34
-1.23e+34
-1.23e+34
-1.23e+34
-1.23e+34
-1.23e+34
-1.23e+34
-1.23e+34
-1.23e+34
-1.23e+34
-1.23e+34
-1.23e+34
-1.23e+34
-1.23e+34
-1.23e+34
-1.23e+34
-1.23e+34
-1.23e+34
-1.23e+34
-1.23e+34
-1.23e+34
-1.23e+34
-1.23e+34
-1.23e+34
-1.23e+34
-1.23e+34
-1.23e+34
-1.23e+34
-1.23e+34
-1.23e+34
-1.23e+34
-1.23e+34
-1.23e+34
-1.23e+34
-1.23e+34
-1.23e+34
-1.23e+34
-1.23e+34
-1.23e+34
-1.23e+34
-1.23e+34
-1.23e+34
-1.23e+34
-1.23e+34
-1.23e+34
-1.23e+34
-1.23e+34
-1.23e+34
-1.23e+34
-1.23e+34
-1.23e+34
-1.23e+34
-1.23e+34
-1.23e+34
-1.23e+34
-1.23e+34
-1.23e+34
-1.23e+34
-1.23e+34
-1.23e+34
-1.23e+34
-1.23e+34
-1.23e+34
-1.23e+34
-1.23e+34
-1.23e+34
-1.23e+34
-1.23e+34
-1.23e+34
-1.23e+34
-1.23e+34
-1.23e+34
-1.23e+34
-1.23e+34
-1.23e+34
-1.23e+34
-1.23e+34
-1.23e+34
-1.23e+34
-1.23e+34
-1.23e+34
-1.23e+34
-1.23e+34
-1.23e+34
-1.23e+34
-1.23e+34
-1.23e+34
-1.23e+34
-1.23e+34
-1.23e+34
-1.23e+34
-1.23e+34
-1.23e+34
-1.23e+34
-1.23e+34
-1.23e+34
-1.23e+34
-1.23e+34
-1.23e+34
-1.23e+34
-1.23e+34
-1.23e+34
-1.23e+34
-1.23e+34
-1.23e+34
-1.23e+34
-1.23e+34
-1.23e+34
-1.23e+34
-1.23e+34
-1.23e+34
-1.23e+34
-1.23e+34
-1.23e+34
-1.23e+34
-1.23e+34
-1.23e+34
-1.23e+34
-1.23e+34
-1.23e+34
-1.23e+34
-1.23e+34
-1.23e+34
-1.23e+34
-1.23e+34
-1.23e+34
-1.23e+34
-1.23e+34
-1.23e+34
-1.23e+34
-1.23e+34
-1.23e+34
-1.23e+34
-1.23e+34
-1.23e+34
-1.23e+34
-1.23e+34
-1.23e+34
-1.23e+34
-1.23e+34
-1.23e+34
-1.23e+34
-1.23e+34
-1.23e+34
-1.23e+34
-1.23e+34
-1.23e+34
-1.23e+34
-1.23e+34
-1.23e+34
-1.23e+34
-1.23e+34
-1.23e+34
-1.23e+34
-1.23e+34
-1.23e+34
-1.23e+34
-1.23e+34
-1.23e+34
-1.23e+34
-1.23e+34
-1.23e+34
-1.23e+34
-1.23e+34
-1.23e+34
-1.23e+34
-1.23e+34
-1.23e+34
-1.23e+34
-1.23e+34
-1.23e+34
-1.23e+34
-1.23e+34
-1.23e+34
-1.23e+34
-1.23e+34
-1.23e+34
-1.23e+34
-1.23e+34
-1.23e+34
-1.23e+34
-1.23e+34
-1.23e+34
-1.23e+34
-1.23e+34
-1.23e+34
-1.23e+34
-1.23e+34
-1.23e+34
-1.23e+34
-1.23e+34
-1.23e+34
-1.23e+34
-1.23e+34
-1.23e+34
-1.23e+34
-1.23e+34
-1.23e+34
-1.23e+34
-1.23e+34
-1.23e+34
-1.23e+34
-1.23e+34
-1.23e+34
-1.23e+34
-1.23e+34
-1.23e+34
-1.23e+34
-1.23e+34
-1.23e+34
-1.23e+34
-1.23e+34
-1.23e+34
-1.23e+34
-1.23e+34
-1.23e+34
-1.23e+34
-1.23e+34
-1.23e+34
-1.23e+34
-1.23e+34
-1.23e+34
-1.23e+34
-1.23e+34
-1.23e+34
-1.23e+34
-1.23e+34
-1.23e+34
-1.23e+34
-1.23e+34
-1.23e+34
-1.23e+34
-1.23e+34
-1.23e+34
-1.23e+34
-1.23e+34
-1.23e+34
-1.23e+34
-1.23e+34
-1.23e+34
-1.23e+34
-1.23e+34
-1.23e+34
-1.23e+34
-1.23e+34
-1.23e+34
-1.23e+34
-1.23e+34
-1.23e+34
-1.23e+34
-1.23e+34
-1.23e+34
-1.23e+34
-1.23e+34
-1.23e+34
-1.23e+34
-1.23e+34
-1.23e+34
-1.23e+34
-1.23e+34
-1.23e+34
-1.23e+34
-1.23e+34
-1.23e+34
-1.23e+34
-1.23e+34
-1.23e+34
-1.23e+34
-1.23e+34
-1.23e+34
-1.23e+34
-1.23e+34
-1.23e+34
-1.23e+34
-1.23e+34
-1.23e+34
-1.23e+34
-1.23e+34
-1.23e+34
-1.23e+34
-1.23e+34
-1.23e+34
-1.23e+34
-1.23e+34
-1.23e+34
-1.23e+34
-1.23e+34
-1.23e+34
-1.23e+34
-1.23e+34
-1.23e+34
-1.23e+34
-1.23e+34
-1.23e+34
-1.23e+34
-1.23e+34
-1.23e+34
-1.23e+34
-1.23e+34
-1.23e+34
-1.23e+34
-1.23e+34
-1.23e+34
-1.23e+34
-1.23e+34
-1.23e+34
-1.23e+34
-1.23e+34
-1.23e+34
-1.23e+34
-1.23e+34
-1.23e+34
-1.23e+34
-1.23e+34
-1.23e+34
-1.23e+34
-1.23e+34
-1.23e+34
-1.23e+34
-1.23e+34
-1.23e+34
-1.23e+34
-1.23e+34
-1.23e+34
-1.23e+34
-1.23e+34
-1.23e+34
-1.23e+34
-1.23e+34
-1.23e+34
-1.23e+34
-1.23e+34
-1.23e+34
-1.23e+34
-1.23e+34
-1.23e+34
-1.23e+34
-1.23e+34
-1.23e+34
-1.23e+34
-1.23e+34
-1.23e+34
-1.23e+34
-1.23e+34
-1.23e+34
-1.23e+34
-1.23e+34
-1.23e+34
-1.23e+34
-1.23e+34
-1.23e+34
-1.23e+34
-1.23e+34
-1.23e+34
-1.23e+34
-1.23e+34
-1.23e+34
-1.23e+34
-1.23e+34
-1.23e+34
-1.23e+34
-1.23e+34
-1.23e+34
-1.23e+34
-1.23e+34
-1.23e+34
-1.23e+34
-1.23e+34
-1.23e+34
-1.23e+34
-1.23e+34
-1.23e+34
-1.23e+34
-1.23e+34
-1.23e+34
-1.23e+34
-1.23e+34
-1.23e+34
-1.23e+34
-1.23e+34
-1.23e+34
-1.23e+34
-1.23e+34
-1.23e+34
-1.23e+34
-1.23e+34
-1.23e+34
-1.23e+34
-1.23e+34
-1.23e+34
-1.23e+34
-1.23e+34
-1.23e+34
-1.23e+34
-1.23e+34
-1.23e+34
-1.23e+34
-1.23e+34
-1.23e+34
-1.23e+34
-1.23e+34
-1.23e+34
-1.23e+34
-1.23e+34
-1.23e+34
-1.23e+34
-1.23e+34
-1.23e+34
-1.23e+34
-1.23e+34
-1.23e+34
-1.23e+34
-1.23e+34
-1.23e+34
-1.23e+34
-1.23e+34
-1.23e+34
-1.23e+34
-1.23e+34
-1.23e+34
-1.23e+34
-1.23e+34
-1.23e+34
-1.23e+34
-1.23e+34
-1.23e+34
-1.23e+34
-1.23e+34
-1.23e+34
-1.23e+34
-1.23e+34
-1.23e+34
-1.23e+34
-1.23e+34
-1.23e+34
-1.23e+34
-1.23e+34
-1.23e+34
-1.23e+34
-1.23e+34
-1.23e+34
-1.23e+34
-1.23e+34
-1.23e+34
-1.23e+34
-1.23e+34
-1.23e+34
-1.23e+34
-1.23e+34
-1.23e+34
-1.23e+34
-1.23e+34
-1.23e+34
-1.23e+34
-1.23e+34
-1.23e+34
-1.23e+34
-1.23e+34
-1.23e+34
-1.23e+34
-1.23e+34
-1.23e+34
-1.23e+34
-1.23e+34
-1.23e+34
-1.23e+34
-1.23e+34
-1.23e+34
-1.23e+34
-1.23e+34
-1.23e+34
-1.23e+34
-1.23e+34
-1.23e+34
-1.23e+34
-1.23e+34
-1.23e+34
-1.23e+34
-1.23e+34
-1.23e+34
-1.23e+34
-1.23e+34
-1.23e+34
-1.23e+34
-1.23e+34
-1.23e+34
-1.23e+34
-1.23e+34
-1.23e+34
-1.23e+34
-1.23e+34
-1.23e+34
-1.23e+34
-1.23e+34
-1.23e+34
-1.23e+34
-1.23e+34
-1.23e+34
-1.23e+34
-1.23e+34
-1.23e+34
-1.23e+34
-1.23e+34
-1.23e+34
-1.23e+34
-1.23e+34
-1.23e+34
-1.23e+34
-1.23e+34
-1.23e+34
-1.23e+34
-1.23e+34
-1.23e+34
-1.23e+34
-1.23e+34
-1.23e+34
-1.23e+34
-1.23e+34
-1.23e+34
-1.23e+34
-1.23e+34
-1.23e+34
-1.23e+34
-1.23e+34
-1.23e+34
-1.23e+34
-1.23e+34
-1.23e+34
-1.23e+34
-1.23e+34
-1.23e+34
-1.23e+34
-1.23e+34
-1.23e+34
-1.23e+34
-1.23e+34
-1.23e+34
-1.23e+34
-1.23e+34
-1.23e+34
-1.23e+34
-1.23e+34
-1.23e+34
-1.23e+34
-1.23e+34
-1.23e+34
-1.23e+34
-1.23e+34
-1.23e+34
-1.23e+34
-1.23e+34
-1.23e+34
-1.23e+34
-1.23e+34
-1.23e+34
-1.23e+34
-1.23e+34
-1.23e+34
-1.23e+34
-1.23e+34
-1.23e+34
-1.23e+34
-1.23e+34
-1.23e+34
-1.23e+34
 0.439749
 0.440009
 0.440332
 0.440703
 0.441108
 0.441535
 0.441978
 0.442435
 0.442907
 0.443396
 0.4439
 0.444413
 0.444931
 0.445452
 0.445975
 0.4465
 0.447029
 0.44756
 0.448089
 0.448613
 0.449122
 0.449614
 0.450084
 0.450533
 0.450961
 0.451367
 0.451753
 0.452119
 0.452466
 0.452794
 0.453105
 0.453403
 0.453691
 0.453974
 0.454255
 0.454537
 0.454822
 0.455112
 0.455413
 0.455729
 0.456061
 0.456411
 0.456776
 0.457148
 0.457523
 0.457899
 0.458279
 0.458664
 0.459059
 0.459465
 0.45988
 0.460303
 0.460729
 0.461154
 0.461575
 0.461987
 0.462388
 0.462775
 0.463144
 0.463494
 0.463821
 0.464125
 0.464407
 0.464671
 0.46492
 0.465158
 0.465386
 0.465603
 0.465809
 0.466003
 0.466187
 0.466364
 0.46654
 0.46672
 0.466907
 0.467104
 0.467311
 0.467526
 0.467747
 0.467971
 0.468201
 0.468439
 0.468692
 0.468961
 0.469247
 0.469543
 0.469843
 0.470143
 0.47044
 0.470735
 0.471028
 0.47132
 0.471612
 0.4719
 0.472184
 0.472461
 0.47273
 0.472992
 0.473238
 0.47347
 0.473689
 0.473895
 0.474087
 0.474263
 0.47442
 0.47456
 0.474686
 0.4748
 0.474903
 0.474994
 0.475072
 0.475136
 0.475186
 0.475229
 0.475278
 0.475342
 0.475428
 0.475533
 0.475651
 0.475776
 0.475908
 0.476044
 0.476183
 0.476324
 0.476466
 0.476608
 0.476749
 0.476883
 0.477003
 0.4771
 0.477172
 0.477224
 0.477265
 0.477299
 0.477318
 0.477304
 0.477235
 0.477096
 0.476876
 0.476581
 0.476216
 0.475792
 0.475317
 0.4748
 0.474251
 0.473693
 0.473151
 0.472657
 0.472235
 0.471898
 0.471648
 0.471477
 0.471374
 0.47133
 0.471338
 0.47139
 0.47148
 0.471601
 0.471746
 0.47191
 0.472089
 0.472283
 0.472495
 0.472722
 0.472963
 0.473213
 0.473471
 0.473738
 0.474015
 0.474302
 0.474598
 0.474899
 0.475204
 0.475512
 0.475824
 0.47614
 0.476463
 0.476792
 0.477126
 0.477464
 0.477802
 0.478137
 0.478461
 0.478769
 0.479058
 0.479331
 0.479591
 0.479844
 0.480091
 0.480329
 0.480557
 0.480772
 0.480974
 0.481162
 0.481334
 0.481489
 0.481625
 0.481742
 0.481843
 0.48193
 0.482006
 0.482073
 0.482132
 0.48218
 0.482213
 0.482231
 0.482234
 0.48223
 0.482227
 0.482234
 0.482253
 0.482283
 0.482318
 0.482355
 0.482391
 0.482429
 0.482472
 0.482523
 0.482587
 0.482661
 0.482741
 0.482821
 0.482899
 0.482974
 0.48305
 0.483128
 0.483211
 0.483299
 0.48339
 0.483482
 0.483575
 0.483668
 0.483765
 0.483866
 0.483968
 0.484063
 0.484145
 0.484209
 0.484256
 0.48429
 0.484321
 0.484351
 0.484381
 0.484404
 0.484417
 0.484418
 0.484408
 0.484385
 0.48435
 0.4843
 0.484234
 0.484151
 0.484056
 0.483953
 0.483849
 0.483746
 0.48364
 0.483526
 0.483398
 0.483252
 0.483088
 0.482908
 0.482717
 0.482519
 0.482315
 0.482109
 0.4819
 0.481688
 0.481471
 0.481244
 0.481002
 0.480742
 0.480467
 0.480181
 0.479889
 0.47959
 0.479282
 0.478956
 0.478604
 0.478221
 0.4778
 0.477336
 0.476828
 0.47627
 0.475663
 0.475007
 0.474303
 0.473563
 0.472801
 0.472039
 0.471301
 0.470616
 0.470007
 0.469494
 0.469088
 0.468789
 0.46859
 0.46848
 0.46845
 0.468491
 0.468591
 0.468734
 0.468902
 0.469078
 0.469248
 0.4694
 0.469531
 0.469637
 0.46972
 0.469782
 0.469822
 0.46984
 0.469831
 0.469798
 0.469741
 0.469664
 0.469573
 0.469469
 0.469358
 0.469246
 0.469143
 0.469058
 0.468996
 0.468957
 0.468939
 0.468934
 0.468934
 0.468934
 0.468928
 0.468919
 0.468913
 0.468913
 0.468921
 0.468934
 0.468949
 0.468964
 0.468978
 0.468995
 0.469014
 0.46904
 0.469072
 0.469112
 0.469161
 0.469222
 0.469297
 0.46939
 0.469502
 0.469633
 0.469776
 0.469923
 0.470069
 0.470215
 0.470364
 0.470519
 0.470677
 0.470831
 0.470972
 0.471098
 0.471213
 0.471324
 0.471432
 0.471534
 0.47162
 0.471684
 0.471721
 0.471735
 0.471731
 0.471718
 0.4717
 0.471683
 0.471669
 0.471662
 0.47166
 0.471659
 0.471653
 0.471634
 0.471598
 0.471545
 0.471473
 0.47138
 0.471263
 0.471122
 0.470961
 0.470785
 0.4706
 0.470412
 0.470222
 0.470032
 0.469838
 0.469639
 0.469432
 0.469213
 0.468983
 0.468739
 0.468485
 0.468224
 0.46796
 0.467694
 0.467424
 0.467147
 0.466859
 0.466559
 0.466248
 0.465926
 0.465596
 0.465256
 0.464902
 0.464534
 0.464151
 0.463758
 0.463362
 0.46297
 0.462586
 0.462209
 0.46184
 0.461477
 0.461118
 0.460761
 0.460404
 0.460047
 0.459689
 0.459328
 0.458963
 0.458595
 0.458227
 0.457866
 0.457513
 0.457171
 0.456836
 0.456507
 0.456184
 0.455868
 0.455559
 0.455256
 0.454959
 0.454668
 0.454385
 0.454113
 0.453848
 0.453586
 0.453322
 0.453053
 0.452784
 0.452519
 0.452256
 0.451992
 0.451717